Frequency(Hz) - Plot 0	Amplitude - Plot 0
8039,46	-40,1492
8060,25	-40,3268
8060,46	-40,4442
8079,51	-40,535
8079,91	-40,4036
8079,81	-40,514
8099,83	-40,4533
8100,13	-40,8509
8120,51	-40,9004
8120	-40,4536
8139,9	-40,4321
8139,6	-40,4561
8160,47	-40,5861
8160,12	-40,5876
8159,77	-40,6734
8180,39	-40,6685
8180,3	-40,5892
8199,85	-40,7884
8199,62	-40,8152
8220,37	-40,6982
8219,68	-40,9438
8239,95	-40,7737
8239,14	-40,791
8239,71	-40,8726
8260,2	-41,1788
8260,6	-41,0983
8279,87	-41,0545
8279,62	-40,8624
8300,07	-41,0982
8300,2	-41,1851
8320,13	-41,2516
8319,69	-41,124
8339,72	-41,2919
8339,85	-41,0338
8339,55	-40,9746
8359,85	-41,2016
8359,54	-41,1718
8380,18	-41,399
8380,41	-41,4127
8399,64	-41,5072
8399,14	-41,4941
8419,98	-41,3758
8419,89	-41,3061
8420,32	-41,5871
8439,89	-41,7301
8439,99	-41,1922
8459,77	-41,4285
8460,23	-41,6819
8480,18	-41,5764
8479,47	-41,1778
8480,27	-41,6237
8500,26	-41,7029
8499,66	-41,668
8519,69	-41,5282
8519,98	-41,6494
8539,62	-41,5793
8539,97	-41,8862
8559,25	-41,6935
8559,63	-41,6092
8559,42	-41,5111
8580,17	-41,6592
8579,56	-41,787
8599,8	-41,7334
8600,23	-42,0067
8619,34	-42,0391
8620,24	-42,1989
8640,3	-42,0642
8640,15	-41,9731
8659,68	-42,2814
8659,88	-41,9562
8679,77	-42,0038
8679,77	-41,968
8679,9	-41,9999
8700,29	-42,1958
8699,93	-42,3135
8720,5	-42,3024
8719,95	-42,2833
8740,23	-42,4817
8740,14	-42,3017
8760,03	-42,2871
8759,6	-41,8942
8779,84	-42,1061
8779,66	-42,2877
8780,41	-42,2431
8799,94	-42,6698
8800,03	-41,9437
8820,1	-42,9355
8819,88	-42,181
8839,68	-42,2936
8839,67	-42,4793
8860,22	-42,7588
8859,65	-42,0785
8880,17	-42,7277
8880,08	-43,091
8899,72	-42,6165
8900,14	-42,288
8899,96	-42,5792
8920,16	-42,6376
8920,07	-42,7539
8939,85	-42,6652
8939,72	-42,4537
8960,01	-42,69
8959,88	-42,6604
8980,01	-42,9517
8979,74	-42,885
8999,95	-42,7171
9000,48	-42,9046
9020,44	-42,9237
9019,77	-43,0586
9039,68	-42,8693
9039,91	-43,0259
9039,76	-42,6442
9059,84	-43,1699
9059,8	-43,08
9079,83	-43,0319
9079,54	-42,9996
9100,01	-43,106
9100,07	-43,254
9120,2	-43,6246
9119,48	-43,1082
9139,13	-43,3036
9139,86	-43,4171
9139,93	-43,2327
9160,04	-43,407
9159,79	-43,4761
9180,43	-43,2768
9180,17	-43,3338
9199,41	-43,4599
9199,82	-43,5006
9219,89	-43,3431
9219,78	-43,4846
9239,59	-43,2952
9240,13	-43,421
9260,09	-43,771
9260,13	-43,6712
9280,36	-43,5757
9279,23	-43,3422
9279,85	-43,5508
9299,94	-43,3166
9299,68	-43,7039
9320,3	-43,4115
9319,88	-43,5881
9339,54	-43,9808
9340,18	-43,5743
9339,86	-43,7155
9359,67	-43,6415
9360,05	-43,6738
9379,83	-43,859
9379,34	-43,5248
9400,41	-43,9464
9400,35	-43,9779
9419,65	-43,9069
9419,01	-43,7838
9439,43	-43,7936
9440,11	-44,162
9439,96	-44,0646
9460,5	-44,2433
9459,9	-44,1338
9479,2	-43,9893
9480,28	-43,9422
9499,27	-43,9697
9500,2	-44,2419
9519,13	-43,6624
9520,05	-44,1051
9539,43	-44,1394
9539,9	-44,3781
9559,02	-44,3061
9559,65	-44,3348
9559,67	-44,0988
9579,98	-44,4373
9579,34	-44,1183
9600,18	-44,4125
9599,9	-44,1296
9619,6	-44,3386
9619,7	-44,5799
9639,74	-44,4756
9638,8	-43,9795
9660,26	-44,228
9659,7	-44,4188
9679,24	-44,6765
9679,79	-44,6897
9679,64	-44,1763
9699,6	-44,3356
9699,21	-44,4976
9720,07	-44,4781
9719,94	-44,783
9740,06	-44,7553
9739,41	-44,3702
9759,49	-44,683
9760,52	-44,9199
9779,41	-44,8086
9780,1	-44,6876
9799,72	-45,0445
9799,46	-45,1043
9820,81	-45,0799
9819,92	-44,8978
9839,84	-44,8914
9840,15	-44,5863
9859,32	-45,1615
9859,93	-44,7826
9860,23	-45,0122
9879,52	-45,0384
9879,93	-44,9218
9900,08	-44,8933
9900,25	-45,0917
9920,71	-45,1312
9920,43	-44,691
9939,9	-44,8046
9940,3	-45,3869
9959,97	-45,0087
9959,75	-45,2908
9979,55	-45,5691
9979,95	-45,177
9980,5	-45,1005
9999,79	-45,6381
9999,62	-45,1797
10018,9	-44,9948
10019,8	-45,2318
10039,9	-45,5749
10039,9	-45,5211
10060,1	-45,0741
10060,5	-45,3726
10080,2	-45,4347
10079,8	-45,069
10100,8	-45,0663
10100,3	-45,4763
10119,3	-45,7401
10120,1	-45,3379
10140,4	-45,6769
10139,9	-45,3946
10160,3	-45,6682
10159,6	-45,9649
10180,2	-45,505
10179,9	-45,5353
10199,5	-45,5139
10200	-45,4534
10200,2	-45,7196
10220	-45,6582
10219,2	-45,7752
10239,7	-45,6019
10239,2	-45,9111
10259,5	-45,791
10259,6	-45,8168
10279,4	-45,7824
10279,7	-46,3771
10300	-46,1789
10300,1	-45,5667
10319,6	-45,5744
10319,8	-45,9989
10340	-46,1306
10340,2	-46,0285
10360,2	-45,8214
10359,9	-46,1051
10380,3	-46,1092
10380	-45,7687
10380	-46,1501
10399,8	-46,3957
10399,3	-46,1871
10420,2	-46,2186
10420,4	-46,4354
10439,6	-46,0473
10439,7	-46,22
10460,1	-46,2734
10459,8	-46,1825
10480,1	-46,4753
10479,7	-46,3349
10499,8	-46,281
10500,3	-46,3641
10519,7	-46,6444
10520,3	-46,6821
10539,4	-46,3599
10539,9	-46,6147
10560,4	-46,4917
10560	-46,6502
10559,5	-46,4721
10580,3	-46,4786
10579,1	-46,4405
10600,2	-46,7602
10599,5	-46,6153
10619,6	-46,9249
10619,3	-46,659
10640,1	-46,4621
10639,4	-47,1578
10659,8	-46,819
10659,8	-46,5301
10659,7	-46,9464
10679,9	-46,6648
10679,3	-46,6121
10699,9	-46,7247
10699,9	-46,9009
10719,9	-46,75
10719,9	-46,6739
10740,3	-46,5706
10739,5	-46,7324
10759,9	-47,0251
10759,6	-46,7246
10780,4	-47,1635
10780	-46,9725
10780,2	-47,1268
10800	-46,8538
10799,3	-47,0257
10820,3	-46,7934
10819,1	-46,9878
10840	-46,9122
10840,2	-47,1459
10859	-47,0411
10859,6	-47,035
10879,5	-47,0345
10880,2	-47,1254
10899,8	-46,9397
10900	-47,3751
10920	-47,163
10919,5	-47,6718
10939,6	-47,6042
10939,8	-47,1702
10960,4	-47,3769
10959,8	-47,3559
10979,6	-46,9539
10979,4	-47,1139
11000,1	-47,7712
10999	-47,1823
11020,3	-46,9552
11020	-47,254
11039,8	-47,1391
11039,9	-47,9541
11040,1	-47,5338
11060	-47,4889
11059,6	-47,2288
11079,8	-47,5308
11080,3	-47,4449
11100,4	-47,5142
11100,6	-47,4103
11119,7	-47,823
11120,4	-47,6685
11140,2	-47,5527
11140,2	-47,8064
11159,9	-47,9219
11159,9	-47,5498
11179,7	-47,6636
11179,9	-47,7494
11200,3	-48,1576
11199,6	-47,6393
11219,8	-47,6102
11220,1	-47,7023
11239,2	-47,7104
11239,8	-47,8562
11259,7	-47,9795
11259,7	-47,5989
11259,6	-47,6034
11279,8	-47,9449
11299,4	-47,8492
11299,2	-47,901
11299,5	-47,9514
11319,9	-48,2967
11319,8	-47,7887
11340	-48,0807
11339,9	-48,1429
11360,1	-48,1855
11359,9	-48,0058
11379,8	-48,2157
11379,8	-48,286
11400,1	-47,8701
11399,3	-47,8226
11419,7	-48,1544
11419,5	-47,9994
11439,9	-48,1601
11440,3	-48,3323
11459,5	-48,2298
11460	-48,2975
11479,6	-47,8606
11480	-48,2721
11499,8	-48,1476
11499,7	-47,918
11520,8	-48,4948
11519,6	-48,4541
11539,8	-48,1046
11540,3	-48,3937
11559,9	-48,332
11559,5	-48,2818
11579,1	-48,2908
11579,5	-48,4075
11600,2	-48,1107
11600,3	-48,3253
11619,9	-48,4129
11618,9	-48,3728
11639,8	-48,5165
11640,2	-48,4585
11659,6	-48,5018
11660	-49,0177
11679,6	-48,5007
11679,8	-47,9397
11699,3	-48,6394
11699	-48,5767
11720	-48,4737
11719,6	-48,4463
11740	-48,8692
11739,4	-48,4828
11760	-48,6033
11760	-48,8009
11779,4	-48,9206
11779,7	-48,7412
11799,7	-48,5665
11800,1	-48,7106
11819,4	-48,596
11819,6	-48,8522
11839,9	-49,0921
11840,1	-48,7019
11840,1	-48,9193
11860,5	-48,8835
11859,7	-49,1345
11879	-48,9606
11879,2	-48,8553
11900,1	-48,9107
11900,6	-49,3621
11919,6	-49,0642
11919	-48,7229
11939,5	-48,7383
11940,4	-49,5352
11959,5	-49,4461
11958,8	-48,7743
11980	-48,9952
11979,5	-48,6179
12000,3	-48,8853
12001	-49,453
